* Measurement data measured by REW V5.20 Beta 59
* Source: Headset (USB-C to 3.5mm Headphone Jack Adapter), MICROPHONE (Master Volume), R, volume: 0.169
* Format: 512k Log Swept Sine, 1 sweep at -6.0 dBFS with no timing reference
* Dated: Oct 15, 2020 6:03:56 PM
* REW Settings:
*  C-weighting compensation: Off
*  Target level: 75.0 dB
* Note: ; 
* Measurement: LZ A7 - off - Black
* Smoothing: 1/48 octave
* Frequency Step: 1/24 octave
* Start Frequency: 20.600 Hz
*
* Freq(Hz)	SPL(dB)	Phase(degrees)
20.600000	80.254974	-126.5618
21.200001	80.347183	-128.5302
21.799999	80.443398	-130.4649
22.400000	80.539917	-132.3483
23.000000	80.650017	-134.0666
23.600000	80.720566	-135.5212
24.299999	80.752075	-137.4694
25.000000	80.837311	-139.4013
25.799999	80.923531	-141.3571
26.500000	80.966980	-143.1716
27.200001	81.000504	-144.9286
28.000000	81.059715	-146.5972
29.000000	81.089569	-148.8016
30.000000	81.128517	-150.8378
30.700001	81.137039	-152.1507
31.500000	81.171463	-153.6685
32.500000	81.175652	-155.5045
33.500000	81.183212	-157.2546
34.500000	81.176178	-158.8943
35.500000	81.174423	-160.5279
36.500000	81.155975	-162.1595
37.500000	81.150070	-163.5467
38.700001	81.125496	-165.1537
40.000000	81.082741	-166.9018
41.200001	81.037102	-168.4460
42.500000	80.994728	-170.0432
43.700001	80.956970	-171.4026
45.000000	80.908363	-172.8082
46.200001	80.871681	-174.0981
47.500000	80.792847	-175.4293
48.700001	80.748085	-176.4715
50.000000	80.675835	-177.6656
51.500000	80.611717	-178.9163
53.000000	80.540085	179.8088
54.500000	80.461304	178.5709
56.000000	80.383331	177.5084
58.000000	80.270798	176.1147
60.000000	80.100006	174.9442
61.500000	80.077911	173.9794
63.000000	79.983200	173.0724
65.000000	79.872711	171.9395
67.000000	79.764755	170.8807
69.000000	79.649002	169.9298
71.000000	79.537193	169.0897
73.000000	79.423828	168.2573
75.000000	79.307465	167.3773
77.500000	79.184082	166.5223
80.000000	79.015648	165.5914
82.500000	78.887154	164.8481
85.000000	78.761475	164.1782
87.500000	78.618057	163.4830
90.000000	78.495972	162.7073
92.500000	78.361298	162.2699
95.000000	78.217445	161.8036
97.500000	78.081665	161.3136
100.000000	77.969406	160.8614
103.000000	77.822014	160.4261
106.000000	77.678772	159.9636
109.000000	77.538994	159.6922
112.000000	77.401009	159.3006
115.000000	77.258476	158.9979
118.000000	77.127190	158.7593
122.000000	76.952164	158.4362
125.000000	76.843704	158.2363
128.000000	76.698982	158.1248
132.000000	76.541214	157.9553
136.000000	76.383133	157.8529
140.000000	76.233902	157.7768
145.000000	76.049667	157.6859
150.000000	75.869591	157.6856
155.000000	75.695663	157.7628
160.000000	75.536072	157.8450
165.000000	75.372765	157.9644
170.000000	75.222168	158.1124
175.000000	75.071045	158.3003
180.000000	74.928047	158.3984
185.000000	74.790939	158.7698
190.000000	74.661407	159.0240
195.000000	74.531136	159.3054
200.000000	74.405983	159.6024
206.000000	74.264618	159.9885
212.000000	74.123894	160.4128
218.000000	73.996277	160.8215
224.000000	73.868675	161.2684
230.000000	73.750076	161.7288
236.000000	73.635918	162.2184
243.000000	73.504524	162.7704
250.000000	73.381393	163.3822
258.000000	73.245483	164.0601
265.000000	73.136787	164.6447
272.000000	73.028419	165.2520
280.000000	72.910622	165.9389
290.000000	72.776848	166.8739
300.000000	72.642029	167.8597
307.000000	72.561935	168.4018
315.000000	72.473404	169.1732
325.000000	72.363579	170.1250
335.000000	72.264290	171.0544
345.000000	72.168022	171.9977
355.000000	72.084526	172.9356
365.000000	71.999413	173.8781
375.000000	71.925835	174.8220
387.000000	71.839699	175.9965
400.000000	71.751778	177.1918
412.000000	71.678741	178.3280
425.000000	71.614578	179.5739
437.000000	71.554367	-179.3192
450.000000	71.496078	-178.0847
462.000000	71.450752	-176.9931
475.000000	71.408699	-175.7807
487.000000	71.367195	-174.6263
500.000000	71.332314	-173.4203
515.000000	71.301346	-172.0616
530.000000	71.277657	-170.6879
545.000000	71.253197	-169.2873
560.000000	71.241539	-167.9363
580.000000	71.233276	-166.1212
600.000000	71.230713	-164.3212
615.000000	71.240242	-162.9485
630.000000	71.250557	-161.6331
650.000000	71.279671	-159.8242
670.000000	71.312286	-158.0178
690.000000	71.358330	-156.2518
710.000000	71.415459	-154.4687
730.000000	71.480362	-152.7261
750.000000	71.561111	-150.9791
775.000000	71.675545	-148.8012
800.000000	71.810402	-146.6508
825.000000	71.964981	-144.5840
850.000000	72.142883	-142.5757
875.000000	72.334656	-140.6187
900.000000	72.555397	-138.8346
925.000000	72.794197	-137.2363
950.000000	73.048065	-135.9738
975.000000	73.246208	-135.1456
1000.000000	73.349983	-133.7781
1030.000000	73.623909	-131.8958
1060.000000	73.862007	-130.5459
1090.000000	74.077553	-128.9239
1120.000000	74.338142	-127.1215
1150.000000	74.650757	-125.4474
1180.000000	74.990234	-124.0670
1220.000000	75.449493	-122.5785
1250.000000	75.788147	-121.6381
1280.000000	76.126587	-120.8466
1320.000000	76.570656	-119.9194
1360.000000	77.015282	-119.1410
1400.000000	77.461769	-118.5014
1450.000000	78.024879	-117.9042
1500.000000	78.603600	-117.5369
1550.000000	79.195381	-117.4480
1600.000000	79.797615	-117.6918
1650.000000	80.411835	-118.3302
1700.000000	81.027367	-119.4038
1750.000000	81.635895	-120.9831
1800.000000	82.219330	-123.0975
1850.000000	82.761063	-125.7654
1900.000000	83.238098	-128.9611
1950.000000	83.628960	-132.6067
2000.000000	83.913986	-136.5563
2060.000000	84.104523	-141.4293
2120.000000	84.132477	-146.1328
2180.000000	84.027054	-150.3435
2240.000000	83.826797	-153.9052
2300.000000	83.573486	-156.7830
2360.000000	83.298889	-159.0126
2430.000000	82.977249	-160.9327
2500.000000	82.672455	-162.2556
2580.000000	82.355255	-163.1540
2650.000000	82.113266	-163.4604
2720.000000	81.915657	-163.3654
2800.000000	81.769554	-162.8912
2900.000000	81.739212	-162.0715
3000.000000	81.882324	-161.5707
3070.000000	82.071152	-161.7126
3150.000000	82.345444	-162.5932
3250.000000	82.709488	-164.9961
3350.000000	83.007004	-168.9444
3450.000000	83.125999	-174.2418
3550.000000	82.970406	179.6707
3650.000000	82.508163	173.6810
3750.000000	81.776321	168.5784
3870.000000	80.672058	164.2902
4000.000000	79.368256	162.0325
4120.000000	78.179184	161.8740
4250.000000	76.971443	163.3028
4370.000000	75.958542	165.7899
4500.000000	74.976486	169.4504
4620.000000	74.188644	173.5149
4750.000000	73.458679	178.5170
4870.000000	72.900650	-176.4602
5000.000000	72.422958	-170.6277
5150.000000	72.050331	-163.5735
5300.000000	71.875626	-156.3363
5450.000000	71.921272	-149.1174
5600.000000	72.204071	-142.2886
5800.000000	72.954636	-134.8224
6000.000000	73.753494	-130.7325
6150.000000	74.539894	-125.7550
6300.000000	75.925964	-126.0052
6500.000000	76.893967	-134.0772
6700.000000	76.483711	-141.4684
6900.000000	75.584625	-142.1862
7100.000000	75.063820	-137.8032
7300.000000	75.227386	-131.7281
7500.000000	76.039162	-126.6376
7750.000000	77.742943	-124.6894
8000.000000	79.746323	-130.6625
8250.000000	80.897354	-145.9844
8500.000000	80.385239	-161.6128
8750.000000	79.180977	-170.7912
9000.000000	78.016479	-175.5647
9250.000000	77.033401	-177.5251
9500.000000	76.470779	-177.5127
9750.000000	76.574997	-179.2335
10000.000000	76.665970	173.2803
10300.000000	75.644485	161.1034
10600.000000	73.703789	154.8082
10900.000000	71.970619	154.9727
11200.000000	70.930069	158.1337
11500.000000	70.651978	161.4586
11800.000000	71.131714	162.9099
12200.000000	72.750183	157.3607
12500.000000	74.025215	143.9899
12800.000000	74.277237	124.5874
13200.000000	73.038139	102.7988
13600.000000	71.875290	88.0919
14000.000000	71.373985	71.5742
14500.000000	70.140503	42.0696
15000.000000	66.880379	13.9067
15500.000000	63.441475	-2.7641
16000.000000	62.342743	-18.3676
16500.000000	60.032887	-59.8389
17000.000000	58.101097	-77.3883
17500.000000	59.389439	-111.1550
18000.000000	60.662308	-166.1786
18500.000000	60.040508	128.9958
19000.000000	58.269356	65.2622
19500.000000	56.619980	-4.5305
