* Measurement data measured by REW V5.19
* Source: Microphone (2- USB Sound Device        ), no input selected, R, volume: no control
* Format: 1M Log Swept Sine, 1 sweep at -20.0 dBFS  With no timing reference
* Dated: Apr 9, 2019 1:15:30 PM
* REW Settings:
*  C-weighting compensation: Off
*  Target level: 75.0 dB
* Note: ; 
* Measurement: CF Andromeda - L
* Smoothing: 1/48 octave
* Frequency Step: 1/24 octave
* Start Frequency: 20.000 Hz
*
* Freq(Hz)	SPL(dB)	Phase(degrees)
20.000000	5.934389	1.8486
20.600000	5.858907	1.0861
21.200001	5.761672	0.3989
21.799999	5.667379	-0.3568
22.400000	5.581325	-1.2345
23.000000	5.508635	-2.2038
23.600000	5.455453	-3.2249
24.299999	5.419405	-4.4359
25.000000	5.406218	-5.5993
25.799999	5.412045	-6.7959
26.500000	5.427659	-7.7166
27.200001	5.444111	-8.5380
28.000000	5.455816	-9.3912
29.000000	5.454300	-10.4033
30.000000	5.438325	-11.4379
30.700001	5.423800	-12.2049
31.500000	5.409918	-13.1245
32.500000	5.403428	-14.3184
33.500000	5.409292	-15.5021
34.500000	5.426065	-16.6111
35.500000	5.444890	-17.6468
36.500000	5.453900	-18.5917
37.500000	5.455713	-19.4587
38.700001	5.452862	-20.5181
40.000000	5.442298	-21.7454
41.200001	5.436091	-22.9035
42.500000	5.441158	-24.1521
43.700001	5.452605	-25.2508
45.000000	5.466843	-26.3678
46.200001	5.475169	-27.3622
47.500000	5.474600	-28.4284
48.700001	5.470008	-29.4128
50.000000	5.464828	-30.4979
51.500000	5.461523	-31.7401
53.000000	5.461635	-32.9444
54.500000	5.462790	-34.1096
56.000000	5.462245	-35.2586
58.000000	5.455767	-36.7851
60.000000	5.449193	-38.2823
61.500000	5.449910	-39.3833
63.000000	5.452105	-40.4955
65.000000	5.450261	-41.9603
67.000000	5.444979	-43.3516
69.000000	5.441017	-44.7486
71.000000	5.433637	-46.1428
73.000000	5.429671	-47.5260
75.000000	5.425213	-48.8981
77.500000	5.411829	-50.5471
80.000000	5.396694	-52.1732
82.500000	5.383497	-53.8094
85.000000	5.372886	-55.4248
87.500000	5.362104	-56.9978
90.000000	5.353384	-58.5666
92.500000	5.344780	-60.1310
95.000000	5.335359	-61.6687
97.500000	5.323157	-63.1727
100.000000	5.310595	-64.6708
103.000000	5.295348	-66.4708
106.000000	5.278355	-68.2278
109.000000	5.259621	-69.9621
112.000000	5.240288	-71.6806
115.000000	5.224198	-73.3928
118.000000	5.209229	-75.0912
122.000000	5.184008	-77.3222
125.000000	5.160851	-78.9566
128.000000	5.138623	-80.5804
132.000000	5.116059	-82.7478
136.000000	5.096868	-84.8977
140.000000	5.070866	-86.9934
145.000000	5.036567	-89.5890
150.000000	5.003232	-92.1673
155.000000	4.964510	-94.6844
160.000000	4.928665	-97.1904
165.000000	4.894498	-99.6617
170.000000	4.857610	-102.1008
175.000000	4.819043	-104.5032
180.000000	4.783468	-106.8950
185.000000	4.747163	-109.2547
190.000000	4.709789	-111.5707
195.000000	4.674790	-113.8825
200.000000	4.638555	-116.1631
206.000000	4.593116	-118.8576
212.000000	4.549439	-121.5390
218.000000	4.501350	-124.1711
224.000000	4.453102	-126.7693
230.000000	4.407477	-129.3421
236.000000	4.362932	-131.8888
243.000000	4.307604	-134.8210
250.000000	4.248623	-137.7101
258.000000	4.183411	-140.9665
265.000000	4.131337	-143.7875
272.000000	4.077736	-146.5683
280.000000	4.013705	-149.6891
290.000000	3.934976	-153.5443
300.000000	3.856353	-157.3279
307.000000	3.800349	-159.9384
315.000000	3.736546	-162.8814
325.000000	3.658060	-166.5109
335.000000	3.580468	-170.0804
345.000000	3.504185	-173.6011
355.000000	3.426996	-177.0653
365.000000	3.350111	179.5143
375.000000	3.276506	176.1341
387.000000	3.188100	172.1298
400.000000	3.088794	167.8676
412.000000	2.992567	164.0046
425.000000	2.890694	159.8959
437.000000	2.798116	156.1748
450.000000	2.695096	152.2216
462.000000	2.601374	148.6212
475.000000	2.495982	144.8108
487.000000	2.403660	141.3463
500.000000	2.309896	137.6558
515.000000	2.197534	133.4805
530.000000	2.081158	129.3983
545.000000	1.967426	125.3987
560.000000	1.855177	121.4754
580.000000	1.704777	116.3720
600.000000	1.560362	111.3979
615.000000	1.453520	107.7603
630.000000	1.350187	104.1915
650.000000	1.215701	99.5392
670.000000	1.078662	95.0187
690.000000	0.948609	90.6187
710.000000	0.821329	86.3427
730.000000	0.695677	82.1887
750.000000	0.573537	78.1622
775.000000	0.430014	73.3052
800.000000	0.299468	68.6337
825.000000	0.177796	64.1505
850.000000	0.069429	59.8478
875.000000	-0.023762	55.7220
900.000000	-0.093306	51.7476
925.000000	-0.141938	47.9203
950.000000	-0.167038	44.2083
975.000000	-0.166086	40.5909
1000.000000	-0.135438	37.0180
1030.000000	-0.061642	32.7682
1060.000000	0.049562	28.4613
1090.000000	0.190122	24.0490
1120.000000	0.354383	19.4785
1150.000000	0.533881	14.7247
1180.000000	0.714787	9.7828
1220.000000	0.941655	2.9553
1250.000000	1.095950	-2.3053
1280.000000	1.230999	-7.6383
1320.000000	1.380655	-14.7855
1360.000000	1.497997	-21.8973
1400.000000	1.589664	-28.9149
1450.000000	1.681282	-37.5186
1500.000000	1.757397	-45.9334
1550.000000	1.819856	-54.1713
1600.000000	1.875233	-62.2646
1650.000000	1.927360	-70.2314
1700.000000	1.975370	-78.0931
1750.000000	2.017317	-85.8693
1800.000000	2.048569	-93.5691
1850.000000	2.072282	-101.2064
1900.000000	2.072644	-108.7853
1950.000000	2.044566	-116.2073
2000.000000	1.992522	-123.3151
2060.000000	1.939753	-131.4252
2120.000000	1.911420	-139.3068
2180.000000	1.884380	-147.1331
2240.000000	1.841562	-154.8589
2300.000000	1.782127	-162.3893
2360.000000	1.709714	-169.6528
2430.000000	1.615503	-177.7700
2500.000000	1.514278	174.5016
2580.000000	1.409281	166.2241
2650.000000	1.335544	159.3997
2720.000000	1.283128	152.9105
2800.000000	1.258258	145.8778
2900.000000	1.290610	137.4949
3000.000000	1.386688	129.4052
3070.000000	1.485757	123.8085
3150.000000	1.621846	117.4187
3250.000000	1.814939	109.3756
3350.000000	2.004863	101.2732
3450.000000	2.153693	93.2072
3550.000000	2.243830	85.4044
3650.000000	2.294828	78.1317
3750.000000	2.351728	71.6141
3870.000000	2.491310	64.4352
4000.000000	2.768659	56.9547
4120.000000	3.087351	49.6780
4250.000000	3.415871	41.3180
4370.000000	3.676453	33.3217
4500.000000	3.907423	24.2126
4620.000000	3.978970	15.0254
4750.000000	3.712592	5.1166
4870.000000	3.174576	-1.9100
5000.000000	2.573840	-6.3491
5150.000000	2.152111	-8.6709
5300.000000	2.095363	-9.5488
5450.000000	2.393955	-10.4333
5600.000000	2.920744	-12.7182
5800.000000	3.495205	-18.2638
6000.000000	3.893625	-22.9225
6150.000000	4.391149	-27.3354
6300.000000	4.694190	-34.6846
6500.000000	4.237861	-45.5065
6700.000000	3.001147	-51.7366
6900.000000	1.608629	-52.0955
7100.000000	0.358361	-47.8787
7300.000000	-0.549813	-39.8462
7500.000000	-0.952870	-29.8547
7750.000000	-0.822365	-16.6987
8000.000000	-0.021053	-4.7794
8250.000000	1.191514	2.6288
8500.000000	2.173741	4.3878
8750.000000	2.288699	2.1953
9000.000000	1.388894	2.4965
9250.000000	-0.231910	7.6246
9500.000000	-1.880707	19.3674
9750.000000	-3.244431	34.9936
10000.000000	-4.290789	52.7435
10300.000000	-5.155190	75.1702
10600.000000	-5.909912	97.0346
10900.000000	-6.829486	119.4114
11200.000000	-8.035111	144.0316
11500.000000	-9.317398	173.0849
11800.000000	-10.220865	-153.5269
12200.000000	-10.360581	-106.6707
12500.000000	-9.810008	-73.2861
12800.000000	-9.070679	-42.6362
13200.000000	-8.153551	-5.0788
13600.000000	-7.482392	30.0887
14000.000000	-7.178412	63.3071
14500.000000	-7.738145	104.7907
15000.000000	-9.105171	154.4015
15500.000000	-8.877028	-147.8971
16000.000000	-8.548813	-103.5822
16500.000000	-9.072904	-58.6595
17000.000000	-10.648125	-14.2913
17500.000000	-13.118083	37.0550
18000.000000	-15.401494	95.8186
18500.000000	-16.694925	156.6150
19000.000000	-17.147228	-149.4945
19500.000000	-17.962042	-106.7200
