* Measurement data measured by REW V5.20
* Source: Headset (USB-C to 3.5mm Headphone Jack Adapter), MICROPHONE (Master Volume), R, volume: 0.260
* Format: 256k Log Swept Sine, 1 sweep at -6.0 dBFS with no timing reference
* Dated: Aug 19, 2021 9:19:26 PM
* REW Settings:
*  C-weighting compensation: Off
*  Target level: 75.0 dB
* Note: ; 
* Measurement: Ceres L
* Smoothing: 1/48 octave
* Frequency Step: 1/24 octave
* Start Frequency: 20.600 Hz
*
* Freq(Hz)	SPL(dB)	Phase(degrees)
20.600000	84.089340	-81.1998
21.200001	84.306259	-83.0896
21.799999	84.481781	-85.0168
22.400000	84.625069	-86.8783
23.000000	84.744835	-88.5777
23.600000	84.855286	-90.1628
24.299999	84.969864	-92.0248
25.000000	85.052063	-93.9184
25.799999	85.117249	-95.9361
26.500000	85.182091	-97.5908
27.200001	85.253395	-99.3118
28.000000	85.312912	-101.3241
29.000000	85.365417	-103.6087
30.000000	85.427437	-105.7388
30.700001	85.468071	-107.2053
31.500000	85.511215	-108.8288
32.500000	85.559860	-110.8012
33.500000	85.599640	-112.6820
34.500000	85.640137	-114.5065
35.500000	85.676811	-116.2724
36.500000	85.711433	-117.9288
37.500000	85.742844	-119.5614
38.700001	85.769180	-121.4783
40.000000	85.801353	-123.3896
41.200001	85.831573	-125.1037
42.500000	85.856979	-126.9244
43.700001	85.878860	-128.4987
45.000000	85.898811	-130.1357
46.200001	85.916130	-131.5892
47.500000	85.929153	-133.1376
48.700001	85.931496	-134.4758
50.000000	85.943069	-135.9211
51.500000	85.948090	-137.4967
53.000000	85.953690	-138.9992
54.500000	85.957130	-140.4464
56.000000	85.957977	-141.8331
58.000000	85.960854	-143.6238
60.000000	85.943108	-145.3201
61.500000	85.949181	-146.5643
63.000000	85.951965	-147.7185
65.000000	85.940277	-149.1903
67.000000	85.928635	-150.6113
69.000000	85.916580	-152.0083
71.000000	85.896286	-153.2888
73.000000	85.871651	-154.5505
75.000000	85.861137	-155.7626
77.500000	85.812912	-157.1827
80.000000	85.781723	-158.5486
82.500000	85.741196	-159.8630
85.000000	85.702049	-161.1051
87.500000	85.662674	-162.2937
90.000000	85.617043	-163.4294
92.500000	85.577065	-164.5140
95.000000	85.533432	-165.5587
97.500000	85.490715	-166.5510
100.000000	85.451912	-167.5046
103.000000	85.403992	-168.5882
106.000000	85.360138	-169.6734
109.000000	85.313957	-170.6624
112.000000	85.268219	-171.6259
115.000000	85.224007	-172.5417
118.000000	85.179245	-173.4228
122.000000	85.116356	-174.5229
125.000000	85.067413	-175.3198
128.000000	85.023796	-176.0755
132.000000	84.954468	-177.0501
136.000000	84.888168	-177.9527
140.000000	84.819199	-178.8313
145.000000	84.728767	-179.8236
150.000000	84.634415	179.2417
155.000000	84.542465	178.3566
160.000000	84.447838	177.5372
165.000000	84.349731	176.7573
170.000000	84.250381	176.0620
175.000000	84.152596	175.3863
180.000000	84.050018	174.7654
185.000000	83.948723	174.1959
190.000000	83.847382	173.6630
195.000000	83.746010	173.1755
200.000000	83.641640	172.7120
206.000000	83.518082	172.2083
212.000000	83.394928	171.7595
218.000000	83.270210	171.3471
224.000000	83.147415	170.9729
230.000000	83.023163	170.6616
236.000000	82.901199	170.3663
243.000000	82.757935	170.0983
250.000000	82.614815	169.8469
258.000000	82.452911	169.6114
265.000000	82.313263	169.4857
272.000000	82.172379	169.3635
280.000000	82.011986	169.2923
290.000000	81.816673	169.2573
300.000000	81.619537	169.2907
307.000000	81.491737	169.3648
315.000000	81.338547	169.4661
325.000000	81.151443	169.6500
335.000000	80.968460	169.8881
345.000000	80.787895	170.1644
355.000000	80.611137	170.5049
365.000000	80.434082	170.8884
375.000000	80.262062	171.3047
387.000000	80.059517	171.8581
400.000000	79.844604	172.5131
412.000000	79.649628	173.1850
425.000000	79.446259	173.9632
437.000000	79.259888	174.7125
450.000000	79.064240	175.5764
462.000000	78.888466	176.4146
475.000000	78.701195	177.3661
487.000000	78.533325	178.2892
500.000000	78.356506	179.3082
515.000000	78.156387	-179.4606
530.000000	77.964233	-178.1729
545.000000	77.778793	-176.8501
560.000000	77.600250	-175.4870
580.000000	77.371864	-173.6010
600.000000	77.158325	-171.6751
615.000000	77.008881	-170.1991
630.000000	76.873390	-168.7034
650.000000	76.718513	-166.8188
670.000000	76.574013	-165.8789
690.000000	76.041138	-163.3930
710.000000	75.916527	-160.6910
730.000000	75.721268	-157.3528
750.000000	75.657684	-154.7049
775.000000	75.542938	-151.6222
800.000000	75.433342	-148.5082
825.000000	75.336090	-145.3508
850.000000	75.261154	-142.1613
875.000000	75.209938	-138.9624
900.000000	75.183594	-135.7757
925.000000	75.180214	-132.6161
950.000000	75.201569	-129.5084
975.000000	75.243546	-126.4653
1000.000000	75.306053	-123.5318
1030.000000	75.401863	-120.1336
1060.000000	75.517792	-116.9169
1090.000000	75.645523	-113.8637
1120.000000	75.781769	-110.9877
1150.000000	75.919716	-108.2676
1180.000000	76.056526	-105.6841
1220.000000	76.232231	-102.4158
1250.000000	76.357285	-100.0727
1280.000000	76.475662	-97.7884
1320.000000	76.626129	-94.7958
1360.000000	76.772575	-91.8544
1400.000000	76.915459	-88.9505
1450.000000	77.096725	-85.3417
1500.000000	77.286392	-81.7691
1550.000000	77.487885	-78.2635
1600.000000	77.706932	-74.8302
1650.000000	77.942337	-71.5164
1700.000000	78.197823	-68.3340
1750.000000	78.473282	-65.3484
1800.000000	78.768372	-62.5753
1850.000000	79.082458	-60.1029
1900.000000	79.412254	-57.9814
1950.000000	79.750122	-56.3318
2000.000000	80.084496	-55.2759
2060.000000	80.428062	-55.0420
2120.000000	80.587814	-55.9738
2180.000000	80.417419	-57.0725
2240.000000	79.988846	-56.6545
2300.000000	79.554970	-54.3638
2360.000000	79.242081	-51.1830
2430.000000	78.992401	-47.3043
2500.000000	78.791359	-43.4985
2580.000000	78.570908	-39.1645
2650.000000	78.375885	-35.2408
2720.000000	78.182007	-31.1517
2800.000000	77.974899	-26.2406
2900.000000	77.750092	-19.7848
3000.000000	77.578339	-13.0659
3070.000000	77.493973	-8.2640
3150.000000	77.436691	-2.7482
3250.000000	77.424202	4.1158
3350.000000	77.472542	10.8113
3450.000000	77.577423	17.2523
3550.000000	77.727112	23.3094
3650.000000	77.906357	28.8756
3750.000000	78.097237	33.8611
3870.000000	78.302551	38.9737
4000.000000	78.428375	43.3996
4120.000000	78.370132	46.5055
4250.000000	77.818207	50.3819
4370.000000	77.705574	55.1184
4500.000000	77.030724	58.4372
4620.000000	76.151711	63.2759
4750.000000	75.043427	70.8989
4870.000000	74.099144	80.8166
5000.000000	73.515327	92.9360
5150.000000	73.136894	105.2406
5300.000000	72.681641	116.8517
5450.000000	72.199478	129.1211
5600.000000	71.779320	142.1573
5800.000000	71.395096	160.4476
6000.000000	71.241524	179.3710
6150.000000	71.291405	-166.2484
6300.000000	71.489670	-151.8484
6500.000000	71.996719	-132.8307
6700.000000	72.791939	-114.3788
6900.000000	73.894714	-96.8618
7100.000000	75.323059	-80.8815
7300.000000	77.075218	-67.4667
7500.000000	79.030464	-57.9575
7750.000000	81.269920	-53.3353
8000.000000	82.352921	-54.7167
8250.000000	82.105789	-53.5520
8500.000000	81.484184	-45.9655
8750.000000	81.155998	-34.0338
9000.000000	81.319588	-20.3671
9250.000000	81.995773	-6.8891
9500.000000	83.143814	4.7540
9750.000000	84.649384	12.8301
10000.000000	86.207626	15.5476
10300.000000	87.350449	11.7607
10600.000000	87.182602	6.6816
10900.000000	86.338661	5.9872
11200.000000	85.595795	8.5552
11500.000000	85.163078	10.8616
11800.000000	84.750946	10.4194
12200.000000	83.752747	6.5808
12500.000000	82.318314	2.4740
12800.000000	80.387825	1.4319
13200.000000	77.847740	5.0833
13600.000000	75.786659	11.4541
14000.000000	74.237488	16.9535
14500.000000	72.757111	19.5829
15000.000000	70.607285	11.5355
15500.000000	66.638206	3.0157
16000.000000	61.851414	-0.1940
16500.000000	57.453957	-1.8132
17000.000000	53.810684	-7.9594
17500.000000	51.376270	-22.0868
18000.000000	48.963238	-42.2827
18500.000000	46.604542	-16.1135
19000.000000	59.020824	-35.5434
19500.000000	61.082047	-118.2916
