* Measurement data measured by REW V5.19
* Source: Microphone (2- USB Sound Device        ), no input selected, R, volume: no control
* Format: 1M Log Swept Sine, 1 sweep at -20.0 dBFS  With no timing reference
* Dated: Apr 29, 2019 8:19:32 PM
* REW Settings:
*  C-weighting compensation: Off
*  Target level: 75.0 dB
* Note: ; 
* Measurement: BGVP DM7 - L
* Smoothing: 1/48 octave
* Frequency Step: 1/24 octave
* Start Frequency: 20.000 Hz
*
* Freq(Hz)	SPL(dB)	Phase(degrees)
20.000000	2.195648	-164.0583
20.600000	2.294300	-165.4749
21.200001	2.348387	-166.6355
21.799999	2.385327	-167.8053
22.400000	2.405292	-169.0130
23.000000	2.414480	-170.2628
23.600000	2.422379	-171.5364
24.299999	2.438461	-173.0471
25.000000	2.462561	-174.5636
25.799999	2.497809	-176.2391
26.500000	2.534068	-177.6176
27.200001	2.572067	-178.9101
28.000000	2.611666	179.7053
29.000000	2.647851	178.0888
30.000000	2.669914	176.5572
30.700001	2.679796	175.4943
31.500000	2.686864	174.2706
32.500000	2.695275	172.7374
33.500000	2.708125	171.2036
34.500000	2.723679	169.7128
35.500000	2.743802	168.3020
36.500000	2.763940	166.9490
37.500000	2.777278	165.6590
38.700001	2.785864	164.1771
40.000000	2.790936	162.5922
41.200001	2.792782	161.1072
42.500000	2.794369	159.5228
43.700001	2.799570	158.1046
45.000000	2.807448	156.6179
46.200001	2.810672	155.2983
47.500000	2.812434	153.9085
48.700001	2.808776	152.6365
50.000000	2.804254	151.2785
51.500000	2.800498	149.7252
53.000000	2.796413	148.1984
54.500000	2.794631	146.7244
56.000000	2.788306	145.2645
58.000000	2.779479	143.3853
60.000000	2.766177	141.5276
61.500000	2.760596	140.1625
63.000000	2.751346	138.8134
65.000000	2.738252	137.0540
67.000000	2.724445	135.3318
69.000000	2.707363	133.6362
71.000000	2.691479	131.9613
73.000000	2.673477	130.3127
75.000000	2.656925	128.6873
77.500000	2.634501	126.6960
80.000000	2.612180	124.7401
82.500000	2.586921	122.8068
85.000000	2.561987	120.9251
87.500000	2.537252	119.0685
90.000000	2.509518	117.2366
92.500000	2.482226	115.4222
95.000000	2.456423	113.6374
97.500000	2.428629	111.8746
100.000000	2.399532	110.1432
103.000000	2.365912	108.0635
106.000000	2.332161	106.0415
109.000000	2.296122	104.0331
112.000000	2.261301	102.0494
115.000000	2.225332	100.0904
118.000000	2.188965	98.1506
122.000000	2.139120	95.6010
125.000000	2.101663	93.7215
128.000000	2.065056	91.8590
132.000000	2.013720	89.4025
136.000000	1.962373	86.9863
140.000000	1.909884	84.6003
145.000000	1.842668	81.6704
150.000000	1.776983	78.7588
155.000000	1.712434	75.9252
160.000000	1.646539	73.1019
165.000000	1.579567	70.3377
170.000000	1.512828	67.6117
175.000000	1.445267	64.9247
180.000000	1.378222	62.2634
185.000000	1.310473	59.6427
190.000000	1.243782	57.0642
195.000000	1.175144	54.5008
200.000000	1.108649	51.9823
206.000000	1.030250	48.9776
212.000000	0.950564	46.0332
218.000000	0.868713	43.1158
224.000000	0.790580	40.2379
230.000000	0.712007	37.3925
236.000000	0.635711	34.5874
243.000000	0.542719	31.3546
250.000000	0.453315	28.1592
258.000000	0.354029	24.5739
265.000000	0.267528	21.4847
272.000000	0.181012	18.4243
280.000000	0.081734	14.9749
290.000000	-0.037364	10.7371
300.000000	-0.152912	6.5499
307.000000	-0.235804	3.6650
315.000000	-0.326197	0.3929
325.000000	-0.440058	-3.6198
335.000000	-0.546342	-7.5823
345.000000	-0.653403	-11.4849
355.000000	-0.758433	-15.3477
365.000000	-0.858556	-19.1575
375.000000	-0.957414	-22.9326
387.000000	-1.073374	-27.3773
400.000000	-1.193978	-32.1400
412.000000	-1.301615	-36.4769
425.000000	-1.412208	-41.1205
437.000000	-1.511603	-45.3453
450.000000	-1.613729	-49.8813
462.000000	-1.705371	-54.0441
475.000000	-1.798793	-58.4668
487.000000	-1.883601	-62.5262
500.000000	-1.968838	-66.8909
515.000000	-2.064402	-71.8797
530.000000	-2.151518	-76.8279
545.000000	-2.234808	-81.7181
560.000000	-2.310707	-86.5934
580.000000	-2.405651	-93.0245
600.000000	-2.492796	-99.4163
615.000000	-2.551284	-104.1840
630.000000	-2.606326	-108.9357
650.000000	-2.671058	-115.2460
670.000000	-2.730412	-121.5146
690.000000	-2.780425	-127.7701
710.000000	-2.824655	-134.0028
730.000000	-2.863277	-140.2213
750.000000	-2.892677	-146.4255
775.000000	-2.923442	-154.1741
800.000000	-2.946530	-161.9034
825.000000	-2.960293	-169.6111
850.000000	-2.964923	-177.3186
875.000000	-2.957750	175.0323
900.000000	-2.944612	167.3898
925.000000	-2.918514	159.7919
950.000000	-2.875423	152.2358
975.000000	-2.821140	144.6655
1000.000000	-2.742546	137.1091
1030.000000	-2.642224	128.0800
1060.000000	-2.513936	119.0005
1090.000000	-2.365652	109.8519
1120.000000	-2.200743	100.6400
1150.000000	-2.028548	91.3633
1180.000000	-1.855482	82.0432
1220.000000	-1.626520	69.6025
1250.000000	-1.463956	60.2927
1280.000000	-1.306539	51.1136
1320.000000	-1.098985	39.0643
1360.000000	-0.893736	27.2112
1400.000000	-0.677468	15.7629
1450.000000	-0.385323	1.9054
1500.000000	-0.053262	-11.4927
1550.000000	0.324908	-24.5016
1600.000000	0.750389	-37.2463
1650.000000	1.215162	-49.8326
1700.000000	1.696793	-62.3938
1750.000000	2.179204	-74.9784
1800.000000	2.630280	-87.6099
1850.000000	3.020641	-100.2236
1900.000000	3.326982	-112.7003
1950.000000	3.536746	-124.8701
2000.000000	3.658765	-136.5139
2060.000000	3.696129	-149.6699
2120.000000	3.658772	-161.7678
2180.000000	3.580394	-172.8406
2240.000000	3.487069	177.0393
2300.000000	3.398244	167.7761
2360.000000	3.329704	159.2322
2430.000000	3.282087	150.0043
2500.000000	3.271858	141.4144
2580.000000	3.308459	132.2158
2650.000000	3.378049	124.6147
2720.000000	3.483534	117.3369
2800.000000	3.644021	109.3538
2900.000000	3.892988	99.7463
3000.000000	4.176178	90.4937
3070.000000	4.386973	84.1923
3150.000000	4.630906	77.1879
3250.000000	4.925641	68.7167
3350.000000	5.209573	60.6418
3450.000000	5.489407	53.0109
3550.000000	5.778829	45.7831
3650.000000	6.091331	38.8240
3750.000000	6.420516	31.9009
3870.000000	6.788342	23.3833
4000.000000	7.068597	13.9836
4120.000000	7.164709	5.7358
4250.000000	7.143790	-1.9983
4370.000000	7.128005	-7.8662
4500.000000	7.220658	-13.5481
4620.000000	7.404445	-19.1654
4750.000000	7.561097	-26.3583
4870.000000	7.494259	-33.7551
5000.000000	7.085801	-41.3831
5150.000000	6.244913	-47.8776
5300.000000	5.233912	-50.9684
5450.000000	4.272571	-50.9485
5600.000000	3.484552	-48.6383
5800.000000	2.732275	-43.1904
6000.000000	2.386900	-35.1504
6150.000000	2.683571	-27.4530
6300.000000	4.125263	-27.5079
6500.000000	2.236907	-23.8590
6700.000000	4.647929	-12.4185
6900.000000	5.206903	-22.2354
7100.000000	4.132498	-25.9265
7300.000000	2.791538	-22.6917
7500.000000	1.735230	-15.3585
7750.000000	0.847045	-4.9084
8000.000000	-0.025044	5.0723
8250.000000	-1.147185	16.8740
8500.000000	-2.171668	32.1099
8750.000000	-2.722051	48.5583
9000.000000	-2.842107	62.7861
9250.000000	-3.449129	71.3655
9500.000000	-4.990436	82.5660
9750.000000	-7.017723	95.6754
10000.000000	-9.625040	113.2041
10300.000000	-13.263643	143.7312
10600.000000	-16.217495	-173.6108
10900.000000	-17.618511	-126.9827
11200.000000	-17.959074	-81.6587
11500.000000	-17.714436	-38.3914
11800.000000	-17.076544	1.9185
12200.000000	-16.067642	55.0975
12500.000000	-14.931037	89.7427
12800.000000	-13.867680	123.7836
13200.000000	-12.980703	159.4491
13600.000000	-14.250369	-155.6022
14000.000000	-13.722665	-107.6909
14500.000000	-12.632749	-59.7942
15000.000000	-16.248682	-1.9965
15500.000000	-15.909037	69.8049
16000.000000	-13.567581	121.6829
16500.000000	-16.930424	158.1707
17000.000000	-21.270729	-129.9944
17500.000000	-23.265003	-50.9385
18000.000000	-23.481087	25.0529
18500.000000	-22.554646	87.4872
19000.000000	-24.296873	132.2174
19500.000000	-27.203985	-168.5759
