* Measurement data measured by REW V5.20
* Source: Headset (USB-C to 3.5mm Headphone Jack Adapter), MICROPHONE (Master Volume), R, volume: 0.260. Timing signal peak level -68.7 dBFS, measurement signal peak level -31.7 dBFS
* Format: 256k Log Swept Sine, 1 sweep at -6.0 dBFS using an acoustic timing reference
* Dated: Dec 13, 2020 1:00:11 PM
* REW Settings:
*  C-weighting compensation: Off
*  Target level: 75.0 dB
* Note: ; Delay -0.0411 ms (-14 mm, -0.55 in) using estimated IR delay relative to Acoustic reference on HEADPHONE R with no timing offset
* Measurement: TA Legacy 4 - 01
* Smoothing: 1/48 octave
* Frequency Step: 1/24 octave
* Start Frequency: 20.600 Hz
*
* Freq(Hz)	SPL(dB)	Phase(degrees)
20.600000	80.980186	-133.7773
21.200001	81.194931	-135.7178
21.799999	81.361664	-136.8936
22.400000	81.434860	-137.8184
23.000000	81.444092	-139.0343
23.600000	81.446205	-140.7359
24.299999	81.484634	-142.8843
25.000000	81.558983	-144.5032
25.799999	81.642052	-145.7777
26.500000	81.665848	-147.0775
27.200001	81.652168	-148.7104
28.000000	81.666565	-150.5412
29.000000	81.740562	-152.3844
30.000000	81.757095	-153.9567
30.700001	81.741997	-155.1331
31.500000	81.733826	-156.5829
32.500000	81.733948	-158.1141
33.500000	81.738068	-159.3573
34.500000	81.729324	-160.8098
35.500000	81.711731	-162.2875
36.500000	81.683685	-163.5452
37.500000	81.650177	-164.6084
38.700001	81.628334	-166.0609
40.000000	81.581505	-167.4089
41.200001	81.560547	-168.5792
42.500000	81.490334	-169.8739
43.700001	81.453766	-170.9736
45.000000	81.398598	-172.1008
46.200001	81.354378	-172.9765
47.500000	81.292870	-173.9655
48.700001	81.238693	-174.8387
50.000000	81.183441	-175.7384
51.500000	81.108185	-176.6682
53.000000	81.032867	-177.5774
54.500000	80.967613	-178.4268
56.000000	80.892899	-179.1922
58.000000	80.807304	179.8586
60.000000	80.717964	179.0865
61.500000	80.624969	178.3240
63.000000	80.550926	177.7111
65.000000	80.455704	176.9822
67.000000	80.364517	176.2795
69.000000	80.273575	175.7337
71.000000	80.187904	175.1351
73.000000	80.097015	174.7077
75.000000	80.010300	174.1933
77.500000	79.938980	173.6659
80.000000	79.794411	173.2097
82.500000	79.690567	172.8098
85.000000	79.599487	172.4407
87.500000	79.498840	172.0593
90.000000	79.408325	171.7534
92.500000	79.319016	171.5803
95.000000	79.228966	171.3566
97.500000	79.142838	171.1494
100.000000	79.061813	170.8722
103.000000	78.966576	170.7626
106.000000	78.873291	170.6352
109.000000	78.776489	170.4959
112.000000	78.699165	170.3847
115.000000	78.603714	170.2780
118.000000	78.521622	170.3464
122.000000	78.414322	170.2670
125.000000	78.346687	170.2188
128.000000	78.280548	170.3162
132.000000	78.182175	170.3939
136.000000	78.094673	170.3972
140.000000	78.011459	170.4710
145.000000	77.913811	170.6427
150.000000	77.824326	170.8271
155.000000	77.736481	170.9598
160.000000	77.654625	171.1485
165.000000	77.569031	171.3915
170.000000	77.492722	171.5576
175.000000	77.422112	171.7774
180.000000	77.343819	172.0101
185.000000	77.286575	172.2808
190.000000	77.227448	172.5499
195.000000	77.167320	172.7924
200.000000	77.115005	173.0401
206.000000	77.046539	173.3427
212.000000	76.987885	173.6789
218.000000	76.928589	173.9955
224.000000	76.875031	174.3224
230.000000	76.824638	174.7109
236.000000	76.768692	174.9681
243.000000	76.718178	175.3466
250.000000	76.664909	175.7505
258.000000	76.605301	176.1939
265.000000	76.556076	176.5510
272.000000	76.518242	176.9567
280.000000	76.464241	177.3896
290.000000	76.406143	177.9035
300.000000	76.345154	178.4952
307.000000	76.306274	178.7903
315.000000	76.275047	179.2592
325.000000	76.231316	179.8213
335.000000	76.181992	-179.6442
345.000000	76.137741	-179.1065
355.000000	76.097496	-178.5555
365.000000	76.053436	-178.0214
375.000000	76.016434	-177.4798
387.000000	75.975426	-176.8487
400.000000	75.931717	-176.1416
412.000000	75.886314	-175.5026
425.000000	75.844292	-174.7528
437.000000	75.804565	-174.1025
450.000000	75.768402	-173.3728
462.000000	75.729065	-172.7147
475.000000	75.693909	-171.9751
487.000000	75.658310	-171.2491
500.000000	75.621300	-170.4871
515.000000	75.588333	-169.5770
530.000000	75.550766	-168.6003
545.000000	75.530228	-167.6181
560.000000	75.509995	-166.6346
580.000000	75.503151	-165.3122
600.000000	75.507935	-164.0179
615.000000	75.516388	-163.1179
630.000000	75.525986	-162.2505
650.000000	75.530716	-161.1472
670.000000	75.534576	-159.9879
690.000000	75.532135	-158.8598
710.000000	75.528175	-157.6780
730.000000	75.533096	-156.4535
750.000000	75.542336	-155.1727
775.000000	75.556198	-153.5416
800.000000	75.582268	-151.8065
825.000000	75.624985	-150.0261
850.000000	75.685295	-148.2292
875.000000	75.764046	-146.3708
900.000000	75.866348	-144.5126
925.000000	75.984680	-142.7003
950.000000	76.128708	-140.9033
975.000000	76.298737	-139.1551
1000.000000	76.489632	-137.5074
1030.000000	76.742706	-135.7121
1060.000000	77.016312	-134.1485
1090.000000	77.300117	-132.8365
1120.000000	77.569534	-131.7256
1150.000000	77.843391	-130.7438
1180.000000	78.111153	-129.9203
1220.000000	78.459343	-129.0119
1250.000000	78.708122	-128.4906
1280.000000	78.942566	-128.0589
1320.000000	79.233078	-127.5443
1360.000000	79.507233	-127.0518
1400.000000	79.768539	-126.5657
1450.000000	80.094582	-125.9283
1500.000000	80.423645	-125.3092
1550.000000	80.767189	-124.7446
1600.000000	81.131821	-124.2891
1650.000000	81.515182	-124.0329
1700.000000	81.914658	-124.0500
1750.000000	82.320992	-124.4282
1800.000000	82.710220	-125.2407
1850.000000	83.063950	-126.4694
1900.000000	83.353363	-128.0278
1950.000000	83.561691	-129.7262
2000.000000	83.689919	-131.3397
2060.000000	83.766502	-132.8751
2120.000000	83.810867	-133.8424
2180.000000	83.874817	-134.3175
2240.000000	83.990364	-134.5442
2300.000000	84.163269	-134.8018
2360.000000	84.379303	-135.2902
2430.000000	84.660599	-136.3370
2500.000000	84.928055	-137.9853
2580.000000	85.164497	-140.5420
2650.000000	85.274086	-143.1783
2720.000000	85.278709	-145.9310
2800.000000	85.155006	-148.9484
2900.000000	84.844254	-152.0881
3000.000000	84.422012	-154.2527
3070.000000	84.097015	-155.1365
3150.000000	83.724670	-155.5730
3250.000000	83.281219	-155.3895
3350.000000	82.871170	-154.4364
3450.000000	82.546356	-152.8901
3550.000000	82.298302	-151.0056
3650.000000	82.123024	-148.8756
3750.000000	82.027954	-146.5742
3870.000000	82.018990	-143.7376
4000.000000	82.143738	-140.7322
4120.000000	82.392532	-138.1955
4250.000000	82.811180	-136.0481
4370.000000	83.323349	-134.9992
4500.000000	83.965057	-135.4085
4620.000000	84.523315	-137.5838
4750.000000	84.925217	-141.5247
4870.000000	85.058060	-145.6064
5000.000000	85.032272	-149.8035
5150.000000	84.875046	-154.7445
5300.000000	84.486374	-159.9940
5450.000000	83.793419	-164.6652
5600.000000	82.867912	-167.6274
5800.000000	81.557358	-168.3709
6000.000000	80.440422	-166.2226
6150.000000	79.819542	-163.6319
6300.000000	79.388275	-160.9317
6500.000000	79.032372	-158.0458
6700.000000	78.749893	-156.3967
6900.000000	78.379982	-155.3024
7100.000000	77.957146	-153.5895
7300.000000	77.644348	-151.1720
7500.000000	77.495941	-148.6441
7750.000000	77.615387	-146.1034
8000.000000	77.975937	-146.2725
8250.000000	78.260139	-149.8540
8500.000000	78.078506	-156.2807
8750.000000	77.185844	-161.7162
9000.000000	76.046860	-164.0210
9250.000000	74.915260	-163.2600
9500.000000	74.126450	-160.3037
9750.000000	73.621933	-157.0182
10000.000000	73.461639	-153.6033
10300.000000	73.800491	-150.8716
10600.000000	74.756310	-152.4684
10900.000000	75.938522	-163.6776
11200.000000	75.624565	172.5242
11500.000000	72.165176	151.8650
11800.000000	67.076637	156.3296
12200.000000	65.901825	179.7458
12500.000000	66.210220	-177.3882
12800.000000	66.520256	-176.8619
13200.000000	67.571968	178.5713
13600.000000	68.436714	164.0012
14000.000000	68.236290	146.5496
14500.000000	67.790474	129.1129
15000.000000	68.212158	109.0889
15500.000000	68.779984	79.0204
16000.000000	68.254044	37.6748
16500.000000	65.535744	-17.9684
17000.000000	56.753357	-49.3574
17500.000000	54.054745	-40.4452
18000.000000	55.456707	-87.5197
18500.000000	54.990864	-147.8494
19000.000000	56.141903	136.3790
19500.000000	57.614132	37.6965
