* Measurement data measured by REW V5.20
* Source: Trace Arithmetic result Merge B to A
* Format: Trace Arithmetic result Merge B to A
* Dated: Aug 30, 2021 5:51:06 PM
* REW Settings:
*  C-weighting compensation: Off
*  Target level: 75.0 dB
* Note: 
* Measurement: Legacy 3 CIEM L
* Smoothing: 1/48 octave
* Frequency Step: 1/24 octave
* Start Frequency: 20.600 Hz
*
* Freq(Hz)	SPL(dB)	Phase(degrees)
20.600000	89.749435	0
21.200001	89.695396	0
21.799999	89.643486	0
22.400000	89.608078	0
23.000000	89.579048	0
23.600000	89.545692	0
24.299999	89.501945	0
25.000000	89.455429	0
25.799999	89.398476	0
26.500000	89.353577	0
27.200001	89.314362	0
28.000000	89.259270	0
29.000000	89.176590	0
30.000000	89.099693	0
30.700001	89.036415	0
31.500000	88.956093	0
32.500000	88.873543	0
33.500000	88.805557	0
34.500000	88.733574	0
35.500000	88.666451	0
36.500000	88.588379	0
37.500000	88.501007	0
38.700001	88.410545	0
40.000000	88.316826	0
41.200001	88.207008	0
42.500000	88.097565	0
43.700001	88.003235	0
45.000000	87.908577	0
46.200001	87.806992	0
47.500000	87.706871	0
48.700001	87.624390	0
50.000000	87.522263	0
51.500000	87.390205	0
53.000000	87.294441	0
54.500000	87.206947	0
56.000000	87.089378	0
58.000000	86.929695	0
60.000000	86.813553	0
61.500000	86.709389	0
63.000000	86.602753	0
65.000000	86.447731	0
67.000000	86.285713	0
69.000000	86.132935	0
71.000000	85.993210	0
73.000000	85.843964	0
75.000000	85.724197	0
77.500000	85.553596	0
80.000000	85.380272	0
82.500000	85.203903	0
85.000000	85.016739	0
87.500000	84.902588	0
90.000000	84.831085	0
92.500000	84.783409	0
95.000000	84.750900	0
97.500000	84.710274	0
100.000000	84.636925	0
103.000000	84.537994	0
106.000000	84.427574	0
109.000000	84.275772	0
112.000000	84.117043	0
115.000000	83.988190	0
118.000000	83.913086	0
122.000000	83.937927	0
125.000000	83.993317	0
128.000000	83.984940	0
132.000000	83.876419	0
136.000000	83.753189	0
140.000000	83.623055	0
145.000000	83.385323	0
150.000000	83.149406	0
155.000000	83.046143	0
160.000000	82.988548	0
165.000000	82.881775	0
170.000000	82.753990	0
175.000000	82.678886	0
180.000000	82.685448	0
185.000000	82.691330	0
190.000000	82.635582	0
195.000000	82.545410	0
200.000000	82.467422	0
206.000000	82.395180	0
212.000000	82.353661	0
218.000000	82.329605	0
224.000000	82.263771	0
230.000000	82.118187	0
236.000000	81.928726	0
243.000000	81.706612	0
250.000000	81.553734	0
258.000000	81.518959	0
265.000000	81.540871	0
272.000000	81.541763	0
280.000000	81.486526	0
290.000000	81.372276	0
300.000000	81.291290	0
307.000000	81.270996	0
315.000000	81.283104	0
325.000000	81.307175	0
335.000000	81.306007	0
345.000000	81.284142	0
355.000000	81.237961	0
365.000000	81.172401	0
375.000000	81.107376	0
387.000000	81.020386	0
400.000000	80.908546	0
412.000000	80.812347	0
425.000000	80.724663	0
437.000000	80.650124	0
450.000000	80.575874	0
462.000000	80.518387	0
475.000000	80.472374	0
487.000000	80.444351	0
500.000000	80.421280	0
515.000000	80.387650	0
530.000000	80.342255	0
545.000000	80.302658	0
560.000000	80.286415	0
580.000000	80.291763	0
600.000000	80.296822	0
615.000000	80.281586	0
630.000000	80.241470	0
650.000000	80.164108	0
670.000000	80.110146	0
690.000000	80.112640	0
710.000000	80.149681	0
730.000000	80.189941	0
750.000000	80.214218	0
775.000000	80.222015	0
800.000000	80.239891	0
825.000000	80.295662	0
850.000000	80.389702	0
875.000000	80.512772	0
900.000000	80.652596	0
925.000000	80.799385	0
950.000000	80.950920	0
975.000000	81.110031	0
1000.000000	81.282990	0
1030.000000	81.515366	0
1060.000000	81.773743	0
1090.000000	82.053360	0
1120.000000	82.339264	0
1150.000000	82.612854	0
1180.000000	82.872101	0
1220.000000	83.211365	0
1250.000000	83.468567	0
1280.000000	83.729095	0
1320.000000	84.076065	0
1360.000000	84.410782	0
1400.000000	84.722672	0
1450.000000	85.077026	0
1500.000000	85.394196	0
1550.000000	85.666061	0
1600.000000	85.872475	0
1650.000000	85.984505	0
1700.000000	85.971809	0
1750.000000	85.819031	0
1800.000000	85.542809	0
1850.000000	85.200462	0
1900.000000	84.873459	0
1950.000000	84.617287	0
2000.000000	84.431656	0
2060.000000	84.261597	0
2120.000000	84.111252	0
2180.000000	83.964874	0
2240.000000	83.824425	0
2300.000000	83.700989	0
2360.000000	83.611473	0
2430.000000	83.569176	0
2500.000000	83.597336	0
2580.000000	83.689865	0
2650.000000	83.786713	0
2720.000000	83.868019	0
2800.000000	83.934044	0
2900.000000	84.014977	0
3000.000000	84.138695	0
3070.000000	84.247162	0
3150.000000	84.363312	0
3250.000000	84.453842	0
3350.000000	84.456757	0
3450.000000	84.364944	0
3550.000000	84.191437	0
3650.000000	83.945786	0
3750.000000	83.630142	0
3870.000000	83.166267	0
4000.000000	82.609505	0
4120.000000	82.188370	0
4250.000000	82.033798	0
4370.000000	82.209785	0
4500.000000	82.579269	0
4620.000000	82.895615	0
4750.000000	83.111679	0
4870.000000	83.204300	0
5000.000000	83.218765	0
5150.000000	83.103638	0
5300.000000	82.784935	0
5450.000000	82.243210	0
5600.000000	81.528862	0
5800.000000	80.440506	0
6000.000000	79.323509	0
6150.000000	78.527802	0
6300.000000	77.811386	0
6500.000000	77.019897	0
6700.000000	76.428329	0
6900.000000	76.034981	0
7100.000000	75.861359	0
7300.000000	75.965408	0
7500.000000	76.390450	0
7750.000000	77.319008	0
8000.000000	78.449615	0
8250.000000	79.391869	0
8500.000000	79.790733	0
8750.000000	79.523926	0
9000.000000	78.744659	0
9250.000000	77.723366	0
9500.000000	76.753036	0
9750.000000	76.121353	0
10000.000000	76.019707	0
10300.000000	76.623207	0
10600.000000	77.829895	0
10900.000000	79.348801	0
11200.000000	80.891159	0
11500.000000	82.202827	0
11800.000000	83.067650	0
12200.000000	83.258812	0
12500.000000	82.601624	0
12800.000000	81.315804	0
13200.000000	78.857513	0
13600.000000	75.874283	0
14000.000000	72.672867	0
14500.000000	68.737045	0
15000.000000	65.244232	0
15500.000000	62.686394	0
16000.000000	61.412441	0
16500.000000	60.806953	0
17000.000000	60.184578	0
17500.000000	59.436077	0
18000.000000	58.889862	0
18500.000000	59.110542	0
19000.000000	60.343723	0
19500.000000	62.013767	0
