* Measurement data measured by REW V5.30.9
* Source: C:\Users\Anthony\Downloads\trace (1).txt
* Format: Comma/Tab/Space delimited data
* Dated: Jul 30, 2024 9:33:47 AM
* REW Settings:
*  C-weighting compensation: Off
*  Target level: 75.0 dB
* Note: ; Measurement imported from C:\Users\Anthony\Downloads\trace (1).txt Format: Comma/Tab/Space delimited data 480 values loaded, 20 Hz to 20,186 Hz log spaced 
* Measurement: trace (1)
* Smoothing: Psychoacoustic
* Frequency Step: 96 ppo
* Start Frequency: 20.0 Hz
*
* Freq(Hz) SPL(dB)
20.000000 63.736
20.144928 63.734
20.290907 63.733
20.437943 63.731
20.586044 63.728
20.735220 63.726
20.885475 63.723
21.036819 63.720
21.189260 63.717
21.342806 63.713
21.497465 63.710
21.653244 63.705
21.810152 63.701
21.968197 63.696
22.127388 63.692
22.287733 63.686
22.449240 63.681
22.611916 63.676
22.775770 63.670
22.940813 63.664
23.107052 63.658
23.274494 63.652
23.443151 63.646
23.613029 63.640
23.784140 63.634
23.956490 63.628
24.130089 63.621
24.304945 63.615
24.481070 63.609
24.658470 63.603
24.837156 63.597
25.017136 63.592
25.198420 63.586
25.381018 63.580
25.564939 63.575
25.750193 63.570
25.936789 63.565
26.124737 63.560
26.314047 63.555
26.504730 63.550
26.696795 63.546
26.890251 63.541
27.085110 63.537
27.281380 63.533
27.479073 63.529
27.678198 63.525
27.878765 63.521
28.080786 63.518
28.284271 63.514
28.489231 63.511
28.695675 63.508
28.903616 63.505
29.113064 63.502
29.324030 63.499
29.536524 63.497
29.750557 63.494
29.966143 63.491
30.183290 63.489
30.402012 63.487
30.622318 63.484
30.844221 63.482
31.067732 63.480
31.292862 63.478
31.519623 63.476
31.748028 63.474
31.978086 63.472
32.209812 63.470
32.443218 63.468
32.678314 63.466
32.915115 63.464
33.153633 63.462
33.393879 63.461
33.635864 63.459
33.879604 63.457
34.125111 63.455
34.372395 63.454
34.621471 63.452
34.872353 63.450
35.125053 63.449
35.379585 63.447
35.635960 63.445
35.894192 63.444
36.154297 63.442
36.416286 63.440
36.680176 63.439
36.945976 63.437
37.213703 63.435
37.483368 63.434
37.754990 63.432
38.028580 63.430
38.304150 63.429
38.581718 63.427
38.861298 63.425
39.142902 63.424
39.426548 63.422
39.712250 63.420
40.000023 63.418
40.289879 63.416
40.581837 63.415
40.875908 63.413
41.172112 63.411
41.470463 63.409
41.770973 63.407
42.073662 63.405
42.378544 63.403
42.685635 63.400
42.994953 63.398
43.306511 63.396
43.620327 63.393
43.936417 63.391
44.254799 63.388
44.575489 63.385
44.898502 63.382
45.223854 63.379
45.551563 63.376
45.881649 63.373
46.214127 63.369
46.549015 63.366
46.886330 63.362
47.226086 63.358
47.568306 63.353
47.913006 63.349
48.260204 63.344
48.609917 63.339
48.962166 63.333
49.316967 63.328
49.674339 63.322
50.034302 63.315
50.396870 63.309
50.762066 63.302
51.129910 63.294
51.500420 63.286
51.873611 63.278
52.249508 63.269
52.628128 63.260
53.009495 63.251
53.393623 63.241
53.780537 63.231
54.170254 63.220
54.562794 63.209
54.958179 63.197
55.356430 63.185
55.757565 63.173
56.161606 63.160
56.568577 63.147
56.978497 63.134
57.391388 63.120
57.807270 63.106
58.226166 63.092
58.648098 63.078
59.073086 63.063
59.501152 63.049
59.932323 63.034
60.366619 63.019
60.804062 63.004
61.244675 62.989
61.688480 62.974
62.135502 62.959
62.585762 62.944
63.039284 62.929
63.496094 62.915
63.956211 62.900
64.419662 62.886
64.886475 62.872
65.356667 62.858
65.830269 62.844
66.307304 62.831
66.787796 62.818
67.271767 62.805
67.759247 62.793
68.250259 62.781
68.744827 62.769
69.242981 62.758
69.744743 62.747
70.250145 62.737
70.759209 62.727
71.271957 62.717
71.788422 62.707
72.308632 62.698
72.832611 62.690
73.360390 62.681
73.891991 62.673
74.427444 62.665
74.966774 62.657
75.510017 62.650
76.057198 62.643
76.608337 62.636
77.163475 62.629
77.722633 62.622
78.285843 62.616
78.853134 62.609
79.424538 62.603
80.000084 62.597
80.579796 62.590
81.163712 62.584
81.751854 62.577
82.344261 62.571
82.940964 62.564
83.541985 62.558
84.147362 62.551
84.757126 62.544
85.371307 62.537
85.989944 62.529
86.613060 62.522
87.240692 62.514
87.872871 62.506
88.509636 62.497
89.151016 62.489
89.797043 62.480
90.447746 62.471
91.103165 62.461
91.763336 62.451
92.428291 62.441
93.098068 62.431
93.772697 62.420
94.452209 62.408
95.136650 62.397
95.826050 62.385
96.520447 62.372
97.219872 62.360
97.924370 62.347
98.633972 62.333
99.348717 62.320
100.068642 62.306
100.793777 62.292
101.524170 62.277
102.259857 62.262
103.000877 62.247
103.747261 62.232
104.499054 62.217
105.256294 62.201
106.019028 62.185
106.787285 62.169
107.561111 62.153
108.340546 62.137
109.125626 62.121
109.916397 62.105
110.712898 62.088
111.515167 62.072
112.323250 62.056
113.137192 62.040
113.957031 62.025
114.782814 62.009
115.614578 61.994
116.452370 61.979
117.296234 61.964
118.146210 61.949
119.002342 61.935
119.864685 61.920
120.733276 61.907
121.608162 61.893
122.489388 61.880
123.376999 61.867
124.271042 61.855
125.171562 61.843
126.078606 61.831
126.992226 61.820
127.912460 61.808
128.839371 61.798
129.772995 61.787
130.713379 61.777
131.660583 61.767
132.614655 61.757
133.575638 61.748
134.543579 61.738
135.518539 61.729
136.500565 61.720
137.489700 61.711
138.486008 61.702
139.489532 61.693
140.500336 61.683
141.518463 61.674
142.543961 61.665
143.576889 61.655
144.617310 61.645
145.665268 61.635
146.720825 61.625
147.784027 61.614
148.854935 61.602
149.933594 61.591
151.020081 61.579
152.114441 61.566
153.216721 61.553
154.326996 61.539
155.445312 61.525
156.571732 61.510
157.706314 61.494
158.849121 61.478
160.000214 61.462
161.159637 61.444
162.327469 61.426
163.503754 61.407
164.688568 61.388
165.881973 61.367
167.084015 61.346
168.294769 61.325
169.514297 61.302
170.742661 61.279
171.979935 61.255
173.226166 61.230
174.481430 61.205
175.745789 61.179
177.019318 61.152
178.302078 61.125
179.594131 61.097
180.895538 61.069
182.206375 61.040
183.526718 61.011
184.856628 60.982
186.196182 60.953
187.545441 60.923
188.904465 60.894
190.273346 60.865
191.652145 60.836
193.040939 60.808
194.439789 60.780
195.848785 60.753
197.267990 60.727
198.697479 60.701
200.137329 60.677
201.587601 60.653
203.048386 60.631
204.519760 60.610
206.001801 60.590
207.494568 60.572
208.998154 60.554
210.512634 60.538
212.038101 60.524
213.574615 60.510
215.122269 60.498
216.681137 60.487
218.251297 60.477
219.832840 60.468
221.425842 60.460
223.030380 60.453
224.646545 60.447
226.274429 60.442
227.914108 60.437
229.565674 60.433
231.229202 60.429
232.904785 60.426
234.592514 60.424
236.292465 60.422
238.004730 60.421
239.729416 60.420
241.466599 60.420
243.216370 60.420
244.978821 60.420
246.754044 60.421
248.542130 60.422
250.343170 60.424
252.157257 60.426
253.984497 60.428
255.824966 60.431
257.678772 60.434
259.546021 60.438
261.426788 60.442
263.321198 60.446
265.229340 60.451
267.151306 60.456
269.087189 60.462
271.037109 60.468
273.001160 60.475
274.979431 60.482
276.972046 60.490
278.979095 60.499
281.000702 60.507
283.036957 60.517
285.087952 60.526
287.153809 60.537
289.234650 60.547
291.330566 60.558
293.441681 60.569
295.568085 60.580
297.709900 60.592
299.867218 60.603
302.040192 60.615
304.228912 60.626
306.433472 60.638
308.654022 60.649
310.890656 60.659
313.143494 60.670
315.412659 60.680
317.698273 60.689
320.000458 60.698
322.319305 60.707
324.654968 60.715
327.007538 60.722
329.377167 60.729
331.763977 60.735
334.168091 60.741
336.589600 60.746
339.028656 60.751
341.485413 60.756
343.959961 60.760
346.452423 60.763
348.962952 60.766
351.491669 60.770
354.038727 60.772
356.604248 60.775
359.188354 60.777
361.791168 60.780
364.412842 60.782
367.053528 60.784
369.713348 60.786
372.392456 60.788
375.090973 60.790
377.809052 60.792
380.546814 60.794
383.304413 60.796
386.082001 60.798
388.879700 60.799
391.697693 60.801
394.536102 60.803
397.395081 60.805
400.274780 60.807
403.175323 60.809
406.096893 60.810
409.039642 60.812
412.003723 60.814
414.989258 60.816
417.996429 60.818
421.025391 60.819
424.076324 60.821
427.149353 60.823
430.244659 60.825
433.362396 60.826
436.502716 60.828
439.665802 60.830
442.851807 60.832
446.060883 60.834
449.293213 60.835
452.548981 60.837
455.828339 60.839
459.131470 60.841
462.458527 60.843
465.809692 60.845
469.185150 60.847
472.585052 60.849
476.009613 60.851
479.458984 60.854
482.933350 60.856
486.432892 60.859
489.957794 60.861
493.508240 60.864
497.084412 60.868
500.686493 60.872
504.314667 60.876
507.969147 60.880
511.650085 60.885
515.357727 60.891
519.092224 60.897
522.853760 60.904
526.642578 60.912
530.458862 60.920
534.302795 60.929
538.174561 60.939
542.074402 60.950
546.002502 60.962
549.959045 60.974
553.944275 60.987
557.958374 61.000
562.001587 61.014
566.074097 61.028
570.176086 61.043
574.307800 61.058
578.469482 61.073
582.661316 61.089
586.883545 61.104
591.136353 61.120
595.419983 61.135
599.734619 61.151
604.080566 61.167
608.458008 61.183
612.867126 61.199
617.308228 61.215
621.781494 61.231
626.287170 61.247
630.825500 61.264
635.396729 61.281
640.001099 61.297
644.638794 61.313
649.310120 61.330
654.015259 61.345
658.754517 61.361
663.528137 61.376
668.336365 61.390
673.179382 61.403
678.057495 61.416
682.971008 61.427
687.920105 61.438
692.905029 61.448
697.926086 61.457
702.983521 61.465
708.077637 61.472
713.208679 61.478
718.376892 61.484
723.582520 61.490
728.825867 61.494
734.107239 61.499
739.426880 61.503
744.785095 61.506
750.182129 61.510
755.618286 61.513
761.093811 61.516
766.609009 61.518
772.164185 61.521
777.759583 61.524
783.395569 61.526
789.072388 61.529
794.790344 61.531
800.549744 61.534
806.350830 61.536
812.193970 61.539
818.079468 61.541
824.007629 61.543
829.978699 61.546
835.993042 61.548
842.050964 61.550
848.152832 61.553
854.298889 61.555
860.489502 61.557
866.724976 61.560
873.005615 61.562
879.331787 61.564
885.703796 61.567
892.121948 61.569
898.586609 61.572
905.098145 61.574
911.656860 61.577
918.263123 61.579
924.917236 61.582
931.619568 61.585
938.370483 61.589
945.170288 61.592
952.019409 61.596
958.918152 61.601
965.866882 61.605
972.865967 61.611
979.915771 61.617
987.016663 61.623
994.169006 61.630
1001.373169 61.639
1008.629517 61.648
1015.938477 61.658
1023.300415 61.669
1030.715698 61.681
1038.184692 61.694
1045.707764 61.708
1053.285400 61.723
1060.917969 61.739
1068.605835 61.756
1076.349365 61.773
1084.149048 61.792
1092.005249 61.810
1099.918335 61.830
1107.888794 61.850
1115.916992 61.870
1124.003418 61.890
1132.148438 61.911
1140.352417 61.933
1148.615845 61.955
1156.939209 61.978
1165.322876 62.002
1173.767334 62.026
1182.272949 62.052
1190.840210 62.078
1199.469482 62.107
1208.161377 62.136
1216.916260 62.168
1225.734497 62.201
1234.616699 62.236
1243.563232 62.273
1252.574585 62.312
1261.651245 62.353
1270.793701 62.396
1280.002441 62.441
1289.277832 62.488
1298.620483 62.537
1308.030762 62.587
1317.509277 62.639
1327.056519 62.693
1336.672974 62.749
1346.359009 62.805
1356.115234 62.864
1365.942261 62.923
1375.840454 62.983
1385.810303 63.044
1395.852417 63.106
1405.967285 63.169
1416.155518 63.231
1426.417603 63.294
1436.754028 63.357
1447.165283 63.420
1457.652100 63.484
1468.214844 63.547
1478.854126 63.610
1489.570557 63.674
1500.364624 63.738
1511.236938 63.802
1522.187988 63.866
1533.218384 63.932
1544.328735 63.998
1555.519531 64.064
1566.791504 64.132
1578.145142 64.201
1589.581055 64.271
1601.099854 64.342
1612.702026 64.414
1624.388306 64.486
1636.159302 64.560
1648.015625 64.635
1659.957886 64.711
1671.986572 64.787
1684.102417 64.863
1696.306152 64.940
1708.598267 65.018
1720.979492 65.095
1733.450439 65.173
1746.011719 65.251
1758.664062 65.328
1771.408081 65.406
1784.244385 65.483
1797.173706 65.560
1810.196777 65.638
1823.314209 65.715
1836.526733 65.792
1849.834961 65.868
1863.239624 65.945
1876.741455 66.022
1890.341064 66.099
1904.039307 66.176
1917.836792 66.254
1931.734253 66.332
1945.732422 66.410
1959.832031 66.489
1974.033813 66.569
1988.338501 66.649
2002.746826 66.731
2017.259521 66.813
2031.877441 66.896
2046.601318 66.981
2061.431885 67.066
2076.369873 67.152
2091.416016 67.239
2106.571289 67.327
2121.836426 67.415
2137.212158 67.503
2152.699219 67.590
2168.298584 67.678
2184.010986 67.765
2199.837158 67.851
2215.778076 67.936
2231.834473 68.019
2248.007324 68.101
2264.297363 68.182
2280.705322 68.260
2297.232178 68.337
2313.878906 68.412
2330.646240 68.486
2347.535156 68.557
2364.546387 68.626
2381.680908 68.693
2398.939453 68.759
2416.323242 68.823
2433.833008 68.884
2451.469482 68.944
2469.233887 69.002
2487.126953 69.058
2505.149658 69.113
2523.302979 69.165
2541.587891 69.215
2560.005371 69.263
2578.556152 69.309
2597.241455 69.353
2616.062256 69.395
2635.019287 69.435
2654.113770 69.472
2673.346680 69.507
2692.718750 69.541
2712.231201 69.572
2731.885254 69.601
2751.681641 69.628
2771.621582 69.654
2791.705811 69.678
2811.935547 69.700
2832.312012 69.720
2852.836182 69.740
2873.509033 69.757
2894.331543 69.773
2915.305176 69.788
2936.430664 69.801
2957.709229 69.813
2979.142090 69.823
3000.730225 69.832
3022.474854 69.838
3044.376953 69.843
3066.437744 69.846
3088.658447 69.846
3111.040039 69.844
3133.583984 69.839
3156.291260 69.831
3179.163086 69.821
3202.200684 69.808
3225.405029 69.791
3248.777588 69.771
3272.319580 69.748
3296.032227 69.722
3319.916748 69.692
3343.974121 69.659
3368.206055 69.622
3392.613525 69.582
3417.197754 69.539
3441.960205 69.492
3466.902100 69.442
3492.024658 69.389
3517.329346 69.333
3542.817383 69.274
3568.489990 69.214
3594.348633 69.151
3620.394775 69.088
3646.629639 69.023
3673.054688 68.958
3699.671143 68.892
3726.480469 68.826
3753.484131 68.761
3780.683350 68.696
3808.079834 68.632
3835.674805 68.569
3863.469727 68.506
3891.466064 68.445
3919.665283 68.384
3948.068848 68.325
3976.678223 68.266
4005.494873 68.208
4034.520264 68.150
4063.756104 68.093
4093.203857 68.036
4122.864746 67.979
4152.740723 67.922
4182.833008 67.864
4213.143555 67.807
4243.673828 67.748
4274.425293 67.689
4305.399414 67.628
4336.598145 67.566
4368.022949 67.503
4399.675293 67.438
4431.557129 67.372
4463.669922 67.304
4496.015625 67.234
4528.595703 67.163
4561.411621 67.089
4594.465332 67.014
4627.758789 66.938
4661.293457 66.860
4695.071289 66.781
4729.093750 66.700
4763.362793 66.618
4797.879883 66.536
4832.647461 66.453
4867.666992 66.369
4902.939941 66.284
4938.468750 66.200
4974.254883 66.115
5010.300293 66.029
5046.606934 65.944
5083.176758 65.858
5120.011719 65.773
5157.113281 65.688
5194.483887 65.603
5232.125488 65.518
5270.039551 65.434
5308.228516 65.350
5346.694336 65.268
5385.438477 65.186
5424.463379 65.105
5463.771484 65.025
5503.364258 64.946
5543.244141 64.868
5583.412598 64.791
5623.872070 64.715
5664.625000 64.641
5705.673340 64.567
5747.019043 64.494
5788.664551 64.422
5830.611816 64.351
5872.862793 64.281
5915.419922 64.212
5958.285645 64.143
6001.461914 64.075
6044.951172 64.007
6088.755371 63.939
6132.876953 63.873
6177.318359 63.806
6222.081543 63.740
6267.169434 63.674
6312.583984 63.609
6358.327637 63.544
6404.402832 63.480
6450.812012 63.415
6497.557129 63.351
6544.641113 63.286
6592.066406 63.222
6639.835449 63.157
6687.950195 63.092
6736.414062 63.027
6785.229004 62.961
6834.397461 62.895
6883.922363 62.828
6933.806152 62.761
6984.051270 62.693
7034.660645 62.625
7085.636719 62.557
7136.981934 62.489
7188.699219 62.421
7240.791504 62.354
7293.261230 62.288
7346.111328 62.222
7399.344238 62.159
7452.962891 62.097
7506.970215 62.037
7561.368652 61.980
7616.161621 61.926
7671.351562 61.876
7726.941406 61.829
7782.934082 61.787
7839.332520 61.749
7896.139648 61.716
7953.358398 61.688
8010.991699 61.666
8069.042480 61.649
8127.514160 61.638
8186.409668 61.633
8245.731445 61.633
8305.483398 61.638
8365.667969 61.648
8426.289062 61.662
8487.349609 61.680
8548.852539 61.702
8610.800781 61.726
8673.198242 61.751
8736.047852 61.778
8799.352539 61.806
8863.116211 61.833
8927.341797 61.860
8992.033203 61.885
9057.193359 61.908
9122.825195 61.929
9188.932617 61.947
9255.519531 61.961
9322.588867 61.971
9390.144531 61.976
9458.189453 61.975
9526.727539 61.968
9595.761719 61.954
9665.296875 61.933
9735.335938 61.903
9805.881836 61.864
9876.939453 61.816
9948.511719 61.757
10020.602539 61.688
10093.215820 61.609
10166.355469 61.518
10240.025391 61.415
10314.228516 61.301
10388.969727 61.175
10464.252930 61.038
10540.081055 60.890
10616.458984 60.730
10693.390625 60.560
10770.878906 60.380
10848.928711 60.190
10927.544922 59.993
11006.730469 59.788
11086.490234 59.577
11166.827148 59.360
11247.746094 59.140
11329.251953 58.918
11411.348633 58.693
11494.040039 58.469
11577.331055 58.246
11661.225586 58.025
11745.727539 57.808
11830.841797 57.596
11916.573242 57.390
12002.925781 57.191
12089.904297 57.000
12177.512695 56.819
12265.755859 56.649
12354.638672 56.489
12444.165039 56.341
12534.340820 56.205
12625.169922 56.081
12716.657227 55.968
12808.807617 55.867
12901.625977 55.775
12995.116211 55.692
13089.284180 55.616
13184.134766 55.547
13279.672852 55.483
13375.903320 55.422
13472.831055 55.363
13570.460938 55.305
13668.797852 55.247
13767.847656 55.188
13867.615234 55.128
13968.105469 55.065
14069.324219 54.999
14171.276367 54.930
14273.966797 54.858
14377.401367 54.782
14481.585938 54.702
14586.525391 54.619
14692.225586 54.531
14798.691406 54.440
14905.928711 54.345
15013.943359 54.246
15122.740234 54.143
15232.326172 54.036
15342.706055 53.924
15453.885742 53.807
15565.871094 53.684
15678.667969 53.555
15792.282227 53.420
15906.719727 53.276
16021.986328 53.123
16138.087891 52.961
16255.031250 52.789
16372.822266 52.606
16491.466797 52.412
16610.970703 52.205
16731.339844 51.987
16852.582031 51.756
16974.703125 51.513
17097.708984 51.258
17221.605469 50.992
17346.400391 50.716
17472.099609 50.432
17598.708984 50.142
17726.236328 49.849
17854.687500 49.556
17984.070312 49.268
18114.390625 48.989
18245.654297 48.725
18377.869141 48.482
18511.042969 48.266
18645.181641 48.081
18780.292969 47.930
18916.382812 47.813
19053.458984 47.729
19191.527344 47.673
19330.597656 47.639
19470.675781 47.621
19611.767578 47.612
19753.882812 47.609
19897.027344 47.608
20041.208984 47.608
20186.435547 0.000

