* Measurement data measured by REW V5.19
* Source: Microphone (USB Sound Device        ), no input selected, L, volume: no control
* Format: 1M Log Swept Sine, 1 sweep at -20.0 dBFS  With no timing reference
* Dated: Mar 30, 2019 12:57:37 PM
* REW Settings:
*  C-weighting compensation: Off
*  Target level: 2.0 dB
* Note: ; 
* Measurement: AKG x Samsung
* Smoothing: 1/48 octave
* Frequency Step: 1/24 octave
* Start Frequency: 20.000 Hz
*
* Freq(Hz)	SPL(dB)	Phase(degrees)
20.000000	8.490050	30.1323
20.600000	8.643574	28.6461
21.200001	8.760063	27.4478
21.799999	8.874990	26.2441
22.400000	8.967458	24.8405
23.000000	9.022154	23.4376
23.600000	9.076525	22.2333
24.299999	9.190060	20.8412
25.000000	9.319668	19.1352
25.799999	9.419170	17.1366
26.500000	9.492860	15.6989
27.200001	9.586388	14.4136
28.000000	9.695293	12.9339
29.000000	9.809128	11.1522
30.000000	9.908777	9.3965
30.700001	9.961315	8.1395
31.500000	10.007655	6.7682
32.500000	10.072609	5.0733
33.500000	10.125582	3.3427
34.500000	10.192944	1.7282
35.500000	10.259222	-0.0869
36.500000	10.291615	-1.6961
37.500000	10.354445	-3.2246
38.700001	10.410414	-5.0937
40.000000	10.453541	-7.1297
41.200001	10.488944	-8.2478
42.500000	10.673376	-10.4172
43.700001	10.607363	-12.5376
45.000000	10.605560	-13.9454
46.200001	10.592575	-15.4598
47.500000	10.605711	-17.0073
48.700001	10.610394	-18.6400
50.000000	10.609555	-20.2888
51.500000	10.620708	-22.1840
53.000000	10.625011	-23.9030
54.500000	10.631110	-25.5862
56.000000	10.631704	-27.2604
58.000000	10.614486	-29.4698
60.000000	10.588059	-31.5227
61.500000	10.580730	-33.1520
63.000000	10.563146	-34.6897
65.000000	10.542683	-36.7680
67.000000	10.506338	-38.6923
69.000000	10.477619	-40.5500
71.000000	10.448484	-42.4755
73.000000	10.407866	-44.2685
75.000000	10.362486	-46.0679
77.500000	10.308945	-48.2095
80.000000	10.248518	-50.3986
82.500000	10.192591	-52.4341
85.000000	10.131321	-54.4851
87.500000	10.067567	-56.3965
90.000000	10.001261	-58.3349
92.500000	9.934215	-60.2775
95.000000	9.860088	-62.0903
97.500000	9.790175	-63.8947
100.000000	9.716272	-65.6437
103.000000	9.643455	-67.7093
106.000000	9.546749	-69.7410
109.000000	9.464307	-71.6490
112.000000	9.369460	-73.5795
115.000000	9.278101	-75.4189
118.000000	9.190588	-77.2987
122.000000	9.067642	-79.7155
125.000000	8.971590	-81.4003
128.000000	8.875372	-83.1473
132.000000	8.755317	-85.4051
136.000000	8.622709	-87.5273
140.000000	8.503300	-89.6314
145.000000	8.348796	-92.2101
150.000000	8.202562	-94.7098
155.000000	8.056744	-97.1542
160.000000	7.901422	-99.5038
165.000000	7.747510	-101.7930
170.000000	7.604152	-103.9571
175.000000	7.459870	-106.1713
180.000000	7.318324	-108.2189
185.000000	7.156044	-110.3987
190.000000	7.033161	-112.3723
195.000000	6.899393	-114.2806
200.000000	6.766316	-116.1844
206.000000	6.608787	-118.4546
212.000000	6.447411	-120.6330
218.000000	6.299676	-122.7494
224.000000	6.139781	-124.8185
230.000000	5.996938	-126.9002
236.000000	5.841391	-128.8188
243.000000	5.683088	-131.0500
250.000000	5.513960	-133.2790
258.000000	5.334042	-135.6909
265.000000	5.181116	-137.8131
272.000000	5.025023	-139.8455
280.000000	4.855762	-142.1415
290.000000	4.645206	-144.9151
300.000000	4.455272	-147.6396
307.000000	4.310545	-149.4124
315.000000	4.171652	-151.4163
325.000000	3.966434	-153.8488
335.000000	3.794768	-156.2703
345.000000	3.628936	-158.6359
355.000000	3.448679	-160.8662
365.000000	3.295558	-163.1181
375.000000	3.135688	-165.2823
387.000000	2.958634	-167.8647
400.000000	2.766300	-170.5844
412.000000	2.603284	-172.9774
425.000000	2.417919	-175.4801
437.000000	2.266477	-177.8607
450.000000	2.106501	179.8360
462.000000	1.978485	177.5776
475.000000	1.824409	175.3243
487.000000	1.690936	173.3867
500.000000	1.545391	171.0895
515.000000	1.399346	168.6434
530.000000	1.263198	166.2385
545.000000	1.118452	163.9065
560.000000	1.005323	161.6132
580.000000	0.823663	158.7485
600.000000	0.688632	155.9935
615.000000	0.561753	153.9829
630.000000	0.474165	151.9373
650.000000	0.347565	149.3799
670.000000	0.232769	146.8826
690.000000	0.134171	144.5518
710.000000	0.051485	142.1268
730.000000	-0.067779	139.8324
750.000000	-0.143699	137.7433
775.000000	-0.225433	135.2111
800.000000	-0.306716	132.9529
825.000000	-0.364434	130.6411
850.000000	-0.413839	128.6083
875.000000	-0.411098	126.6768
900.000000	-0.399181	124.8236
925.000000	-0.354900	122.9971
950.000000	-0.309036	121.2554
975.000000	-0.203173	119.6623
1000.000000	-0.086668	117.4039
1030.000000	0.102196	115.9387
1060.000000	0.317595	113.9911
1090.000000	0.588656	111.5933
1120.000000	0.872619	109.2808
1150.000000	1.161894	106.7315
1180.000000	1.482219	103.9507
1220.000000	1.857420	99.9698
1250.000000	2.143666	96.8088
1280.000000	2.406306	93.5506
1320.000000	2.725953	89.1306
1360.000000	3.030784	84.8125
1400.000000	3.284549	80.4932
1450.000000	3.590570	75.2557
1500.000000	3.874471	70.3343
1550.000000	4.157980	65.4731
1600.000000	4.417546	60.8927
1650.000000	4.707346	56.3843
1700.000000	4.982278	52.0352
1750.000000	5.271102	47.8689
1800.000000	5.560448	43.6471
1850.000000	5.864496	39.6530
1900.000000	6.166964	35.6249
1950.000000	6.481210	31.6653
2000.000000	6.808212	27.7817
2060.000000	7.166320	23.0425
2120.000000	7.547815	18.2494
2180.000000	7.910193	13.5398
2240.000000	8.275770	8.7898
2300.000000	8.615024	4.0072
2360.000000	8.959065	-0.7684
2430.000000	9.320858	-6.4121
2500.000000	9.645000	-11.9122
2580.000000	9.969801	-18.2507
2650.000000	10.219324	-23.6638
2720.000000	10.425549	-28.9902
2800.000000	10.612888	-34.8956
2900.000000	10.782529	-41.9071
3000.000000	10.896528	-48.5638
3070.000000	10.915380	-52.9276
3150.000000	10.914394	-57.7194
3250.000000	10.849171	-63.3687
3350.000000	10.702925	-68.6238
3450.000000	10.450538	-73.2612
3550.000000	10.131544	-77.1458
3650.000000	9.736515	-80.2103
3750.000000	9.267474	-82.2435
3870.000000	8.696111	-82.8716
4000.000000	8.220035	-81.9422
4120.000000	7.852235	-80.6317
4250.000000	7.484882	-78.3878
4370.000000	7.162435	-75.4630
4500.000000	6.878160	-71.2487
4620.000000	6.679346	-66.5850
4750.000000	6.572911	-60.7552
4870.000000	6.565345	-54.8305
5000.000000	6.672618	-47.9836
5150.000000	6.920409	-39.8141
5300.000000	7.324422	-31.4708
5450.000000	7.863128	-23.2117
5600.000000	8.517971	-15.3492
5800.000000	9.511486	-5.8566
6000.000000	10.546469	2.2127
6150.000000	11.257668	7.2665
6300.000000	11.849068	11.8354
6500.000000	12.537869	18.0532
6700.000000	13.308775	23.8345
6900.000000	14.150560	26.2281
7100.000000	14.363110	22.6720
7300.000000	12.954695	18.1292
7500.000000	10.275954	21.7838
7750.000000	6.765007	39.1259
8000.000000	3.905880	65.3549
8250.000000	1.826746	96.3863
8500.000000	0.415232	129.8486
8750.000000	-0.398845	164.6357
9000.000000	-0.609043	-159.9900
9250.000000	-0.426665	-125.3556
9500.000000	0.142085	-91.7102
9750.000000	1.040694	-59.8606
10000.000000	2.179388	-31.0903
10300.000000	3.182454	-1.9154
10600.000000	3.138346	25.1967
10900.000000	2.199389	56.6869
11200.000000	1.048112	94.2982
11500.000000	0.213564	136.7222
11800.000000	-0.125425	-178.5431
12200.000000	0.220437	-118.1773
12500.000000	0.913578	-74.9552
12800.000000	1.588768	-34.0983
13200.000000	2.296657	18.8383
13600.000000	2.950107	70.4524
14000.000000	3.298218	118.5131
14500.000000	2.252007	177.5981
15000.000000	0.067952	-113.5728
15500.000000	-1.820498	-34.8513
16000.000000	-2.890448	48.2053
16500.000000	-3.208296	132.1711
17000.000000	-3.016174	-145.5652
17500.000000	-2.257869	-67.3239
18000.000000	-1.802145	-1.4507
18500.000000	-3.869446	59.8114
19000.000000	-7.401724	131.3698
19500.000000	-10.748784	-150.2008
