* Measurement data measured by REW V5.19
* Source: Microphone (2- USB Sound Device        ), no input selected, R, volume: no control
* Format: 1M Log Swept Sine, 1 sweep at -20.0 dBFS  With no timing reference
* Dated: Apr 11, 2019 9:06:38 PM
* REW Settings:
*  C-weighting compensation: Off
*  Target level: 75.0 dB
* Note: ; 
* Measurement: Solaris (Left)
* Smoothing: 1/48 octave
* Frequency Step: 1/24 octave
* Start Frequency: 20.000 Hz
*
* Freq(Hz)	SPL(dB)	Phase(degrees)
20.000000	3.256235	-7.4336
20.600000	3.293551	-8.1002
21.200001	3.291815	-8.6454
21.799999	3.272158	-9.1959
22.400000	3.243103	-9.8272
23.000000	3.210046	-10.5438
23.600000	3.179274	-11.3212
24.299999	3.153185	-12.2680
25.000000	3.140786	-13.2199
25.799999	3.140701	-14.2693
26.500000	3.147181	-15.1194
27.200001	3.154947	-15.8896
28.000000	3.160468	-16.6839
29.000000	3.156934	-17.5941
30.000000	3.140598	-18.4933
30.700001	3.121501	-19.1428
31.500000	3.097637	-19.8986
32.500000	3.074684	-20.8924
33.500000	3.056264	-21.9290
34.500000	3.043701	-22.9152
35.500000	3.038906	-23.8440
36.500000	3.033199	-24.7163
37.500000	3.024074	-25.5376
38.700001	3.004054	-26.5121
40.000000	2.973747	-27.5583
41.200001	2.947991	-28.5437
42.500000	2.924587	-29.6340
43.700001	2.907002	-30.6112
45.000000	2.888660	-31.6391
46.200001	2.871483	-32.5099
47.500000	2.851502	-33.4933
48.700001	2.826172	-34.3458
50.000000	2.803581	-35.3415
51.500000	2.767746	-36.4144
53.000000	2.743115	-37.4742
54.500000	2.719671	-38.5219
56.000000	2.690598	-39.5176
58.000000	2.660500	-40.8660
60.000000	2.623524	-42.1794
61.500000	2.594832	-43.1345
63.000000	2.567700	-44.0781
65.000000	2.528922	-45.3281
67.000000	2.488961	-46.5510
69.000000	2.454617	-47.7726
71.000000	2.412174	-48.9612
73.000000	2.370948	-50.1168
75.000000	2.332305	-51.2522
77.500000	2.291325	-52.6515
80.000000	2.242639	-54.0497
82.500000	2.195519	-55.4123
85.000000	2.156860	-56.7575
87.500000	2.106412	-58.0546
90.000000	2.066287	-59.3664
92.500000	2.024733	-60.6594
95.000000	1.981274	-61.9146
97.500000	1.938467	-63.1016
100.000000	1.898257	-64.2875
103.000000	1.844651	-65.7772
106.000000	1.797763	-67.1877
109.000000	1.749963	-68.5599
112.000000	1.701507	-69.9313
115.000000	1.653342	-71.3046
118.000000	1.609812	-72.6357
122.000000	1.551776	-74.3818
125.000000	1.507631	-75.6593
128.000000	1.466887	-76.9392
132.000000	1.407245	-78.6232
136.000000	1.359051	-80.2743
140.000000	1.301525	-81.9171
145.000000	1.237855	-83.9248
150.000000	1.167100	-85.8301
155.000000	1.114081	-87.8357
160.000000	1.053254	-89.7234
165.000000	1.003567	-91.6013
170.000000	0.944698	-93.4797
175.000000	0.892428	-95.2847
180.000000	0.839484	-97.0844
185.000000	0.792484	-98.8936
190.000000	0.743674	-100.6334
195.000000	0.690556	-102.3886
200.000000	0.645287	-104.1565
206.000000	0.586599	-106.1451
212.000000	0.536908	-108.1707
218.000000	0.479774	-110.1355
224.000000	0.438008	-112.0726
230.000000	0.384069	-113.9984
236.000000	0.335872	-115.9318
243.000000	0.289497	-118.1445
250.000000	0.238453	-120.3640
258.000000	0.178765	-122.7756
265.000000	0.126589	-124.9214
272.000000	0.080962	-127.0260
280.000000	0.026744	-129.3633
290.000000	-0.035029	-132.2664
300.000000	-0.086210	-135.1205
307.000000	-0.141637	-137.1104
315.000000	-0.187584	-139.3726
325.000000	-0.238125	-142.1106
335.000000	-0.292412	-144.8419
345.000000	-0.343012	-147.5141
355.000000	-0.395096	-150.1663
365.000000	-0.440890	-152.7641
375.000000	-0.483631	-155.3329
387.000000	-0.534678	-158.3804
400.000000	-0.583581	-161.6334
412.000000	-0.630165	-164.5429
425.000000	-0.683400	-167.6589
437.000000	-0.719623	-170.4860
450.000000	-0.760037	-173.5231
462.000000	-0.787805	-176.3131
475.000000	-0.833854	-179.2375
487.000000	-0.864584	178.0188
500.000000	-0.894048	175.2344
515.000000	-0.921292	171.9860
530.000000	-0.946000	168.7281
545.000000	-0.967176	165.6131
560.000000	-0.986775	162.4940
580.000000	-0.989617	158.1892
600.000000	-1.058518	154.0642
615.000000	-1.074945	151.2293
630.000000	-1.075191	148.3147
650.000000	-1.071957	144.4641
670.000000	-1.073822	140.6196
690.000000	-1.076536	136.8522
710.000000	-1.078765	133.0829
730.000000	-1.087133	129.3615
750.000000	-1.106705	125.7766
775.000000	-1.107613	121.5486
800.000000	-1.091095	117.3490
825.000000	-1.072044	113.1506
850.000000	-1.050374	109.0063
875.000000	-1.032223	104.8958
900.000000	-1.018109	100.9554
925.000000	-0.999305	97.1157
950.000000	-0.972441	93.4109
975.000000	-0.940444	89.8235
1000.000000	-0.892268	86.3098
1030.000000	-0.826680	82.3431
1060.000000	-0.732552	78.4149
1090.000000	-0.617677	74.5763
1120.000000	-0.475304	70.7574
1150.000000	-0.310013	66.9269
1180.000000	-0.138093	63.0480
1220.000000	0.112887	57.7784
1250.000000	0.296538	53.8069
1280.000000	0.484217	49.8383
1320.000000	0.726944	44.5624
1360.000000	0.971778	39.3820
1400.000000	1.220098	34.2682
1450.000000	1.549020	28.0457
1500.000000	1.909187	21.9561
1550.000000	2.314235	15.9279
1600.000000	2.759799	9.8181
1650.000000	3.252522	3.5568
1700.000000	3.781633	-3.0065
1750.000000	4.336094	-10.0018
1800.000000	4.894632	-17.5323
1850.000000	5.432023	-25.6470
1900.000000	5.923654	-34.3772
1950.000000	6.338021	-43.6907
2000.000000	6.641932	-53.4751
2060.000000	6.823002	-65.6149
2120.000000	6.781775	-77.6310
2180.000000	6.537474	-88.9590
2240.000000	6.158354	-99.2152
2300.000000	5.704052	-108.2632
2360.000000	5.221004	-116.2057
2430.000000	4.666696	-124.2120
2500.000000	4.154159	-131.0729
2580.000000	3.641476	-137.7028
2650.000000	3.290392	-142.6112
2720.000000	3.046775	-146.9219
2800.000000	2.914582	-151.4033
2900.000000	2.978371	-156.9360
3000.000000	3.260568	-163.1370
3070.000000	3.551857	-168.3140
3150.000000	3.913079	-175.4144
3250.000000	4.250464	173.4971
3350.000000	4.162823	160.4119
3450.000000	3.497557	147.4844
3550.000000	2.317837	136.7384
3650.000000	0.872691	128.3756
3750.000000	-0.956602	124.0804
3870.000000	-3.052713	125.5430
4000.000000	-4.675393	133.2695
4120.000000	-5.341786	144.2438
4250.000000	-4.849747	156.0564
4370.000000	-3.684429	163.0155
4500.000000	-2.157743	166.3894
4620.000000	-0.719350	165.0710
4750.000000	0.333306	159.2040
4870.000000	0.556309	153.1418
5000.000000	0.219516	149.3668
5150.000000	-0.371764	149.5793
5300.000000	-0.821245	153.4043
5450.000000	-0.999357	159.4729
5600.000000	-0.878371	166.8079
5800.000000	-0.247914	177.6561
6000.000000	0.959413	-171.6012
6150.000000	2.246834	-164.7353
6300.000000	3.833733	-160.1494
6500.000000	6.089767	-160.7828
6700.000000	7.294991	-170.4131
6900.000000	6.632035	-178.5654
7100.000000	5.432909	-178.0638
7300.000000	4.444506	-175.1879
7500.000000	2.915647	-171.5386
7750.000000	0.417117	-157.9340
8000.000000	-1.509393	-136.1160
8250.000000	-2.716458	-111.0295
8500.000000	-3.372791	-84.5131
8750.000000	-3.592395	-57.2995
9000.000000	-3.347527	-29.7758
9250.000000	-2.802669	-4.0399
9500.000000	-2.183299	20.9071
9750.000000	-1.352625	45.2527
10000.000000	-0.316648	67.2620
10300.000000	0.760606	88.1868
10600.000000	0.646068	103.7621
10900.000000	-1.410189	123.8217
11200.000000	-3.817192	159.1889
11500.000000	-4.985869	-161.7611
11800.000000	-5.971464	-121.8935
12200.000000	-6.761081	-64.4762
12500.000000	-6.678738	-20.5691
12800.000000	-6.163526	21.7672
13200.000000	-5.263989	74.7797
13600.000000	-4.466809	125.3735
14000.000000	-3.698390	174.7481
14500.000000	-2.969961	-127.9379
15000.000000	-3.183683	-70.5231
15500.000000	-4.299508	-11.9787
16000.000000	-5.834171	56.8957
16500.000000	-6.301174	131.1726
17000.000000	-5.679455	-157.2779
17500.000000	-4.633711	-95.3049
18000.000000	-5.182272	-44.5042
18500.000000	-7.881289	13.4793
19000.000000	-10.061441	79.3503
19500.000000	-11.615479	139.1504
